File: clean_data.csv
"","SampleCode","strain","Stress_kPa","Relporo","freq","amp","E1_MPA","tandelta","Estatic_MPA","NVP","Cycle","Time","ChemIndex","Porosity"
"1","98A_100_71_107",-0.291333,-110.362,59.078,0.5,0.0240391,1.16013,0.268627,0.378879,0.0543055,"Cyc_A",0,100,71
"4","98A_100_71_107",-0.291333,-110.362,59.078,0.5,0.0240391,1.14296,0.240869,0.293,0.0573288,"Cyc_D",4000,100,71
"7","98A_100_71_107",-0.291333,-110.362,59.078,0.5,0.0240391,1.13192,0.237402,0.285004,0.0569239,"Cyc_G",7000,100,71
"10","98A_100_71_107",-0.291333,-110.362,59.078,0.5,0.0240391,1.11548,0.235585,0.278069,0.056558,"Cyc_J",10000,100,71
"13","98A_100_71_107",-0.291333,-110.362,59.078,0.5,0.0240391,1.09989,0.231866,0.262753,0.0564351,"Cyc_M",25000,100,71
"16","98A_100_71_118",-0.291336,-99.2925,59.0779,0.3,0.0247185,1.00229,0.226134,0.288832,0.0524986,"Cyc_B",2000,100,71
"19","98A_100_71_118",-0.291336,-99.2925,59.0779,0.3,0.0247185,1.02101,0.230963,0.279153,0.0526083,"Cyc_E",5000,100,71
"22","98A_100_71_118",-0.291336,-99.2925,59.0779,0.3,0.0247185,1.03349,0.21613,0.271391,0.0538669,"Cyc_H",8000,100,71
"25","98A_100_71_118",-0.291336,-99.2925,59.0779,0.3,0.0247185,1.05308,0.233969,0.266206,0.0540669,"Cyc_K",12500,100,71
"28","98A_100_71_125",-0.291359,-116.382,59.0777,10.0077,0.0231092,1.21048,0.8055,0.342828,0.0745528,"Cyc_C",3000,100,71
"31","98A_100_71_125",-0.291359,-116.382,59.0777,10.0077,0.0231092,1.20476,0.802612,0.329904,0.0752593,"Cyc_F",6000,100,71
"34","98A_100_71_125",-0.291359,-116.382,59.0777,10.0077,0.0231092,1.20042,0.801237,0.322486,0.0756566,"Cyc_I",9000,100,71
"37","98A_100_71_125",-0.291359,-116.382,59.0777,10.0077,0.0231092,1.19388,0.799565,0.313077,0.0758669,"Cyc_L",15000,100,71
"40","98A_100_71_126",-0.291336,-99.9612,59.0779,0.4,0.0240615,0.968194,0.23441,0.286022,0.0546796,"Cyc_B",2000,100,71
"43","98A_100_71_126",-0.291336,-99.9612,59.0779,0.4,0.0240615,0.975364,0.228128,0.272659,0.0537769,"Cyc_E",5000,100,71
"46","98A_100_71_126",-0.291336,-99.9612,59.0779,0.4,0.0240615,0.97919,0.225689,0.266759,0.0535918,"Cyc_H",8000,100,71
"49","98A_100_71_126",-0.291336,-99.9612,59.0779,0.4,0.0240615,0.983099,0.22389,0.260829,0.0531301,"Cyc_K",12500,100,71
"52","98A_100_71_126",-0.291336,-99.9612,59.0779,0.4,0.0240615,0.986111,0.221831,0.255606,0.0528587,"Cyc_N",20000,100,71
"55","98A_100_71_154",-0.692916,-111.278,5.56236,0.5,0.0244461,-1.12872,0.247595,0.139419,0.0595175,"Cyc_C",500,100,71
"58","98A_100_71_154",-0.692916,-111.278,5.56236,0.5,0.0244461,-1.12948,0.239362,0.129746,0.0599853,"Cyc_F",2000,100,71
"61","98A_100_71_154",-0.692916,-111.278,5.56236,0.5,0.0244461,-1.13816,0.23481,0.124494,0.0595427,"Cyc_I",5000,100,71
"64","98A_100_71_154",-0.692916,-111.278,5.56236,0.5,0.0244461,-1.14887,0.227658,0.122293,0.0602107,"Cyc_L",8000,100,71
"67","98A_100_81_105",-0.527559,-11.3092,59.7833,0.5,0.0240538,0.128138,0.300413,0.0214369,0.0794049,"Cyc_A",0,100,81
"70","98A_100_81_105",-0.527559,-11.3092,59.7833,0.5,0.0240538,0.121543,0.275642,0.0161469,0.0853478,"Cyc_D",4000,100,81
"73","98A_100_81_105",-0.527559,-11.3092,59.7833,0.5,0.0240538,0.119539,0.273066,0.0155017,0.0847088,"Cyc_G",7000,100,81
"76","98A_100_81_105",-0.527559,-11.3092,59.7833,0.5,0.0240538,0.118185,0.27145,0.0152099,0.083625,"Cyc_J",10000,100,81
"79","98A_100_81_105",-0.527559,-11.3092,59.7833,0.5,0.0240538,0.118358,0.268074,0.0148029,0.0843678,"Cyc_M",25000,100,81
"82","98A_100_81_121",-0.527553,-9.72451,59.7859,0.28,0.0241908,0.086393,0.250429,0.0170556,0.0794243,"Cyc_B",150,100,81
"85","98A_100_81_121",-0.527553,-9.72451,59.7859,0.28,0.0241908,NA,0.241124,0.0159101,0.0732533,"Cyc_E",900,100,81
"88","98A_100_81_127",-0.527579,-11.2866,59.7832,10,0.023121,0.112152,1.19119,0.018876,0.0909101,"Cyc_C",3000,100,81
"91","98A_100_81_127",-0.527579,-11.2866,59.7832,10,0.023121,0.11143,1.19261,0.0181746,0.0917051,"Cyc_F",6000,100,81
"94","98A_100_81_127",-0.527579,-11.2866,59.7832,10,0.023121,0.110919,1.19326,0.0177701,0.0922562,"Cyc_I",9000,100,81
"97","98A_100_81_150",-0.527583,-11.2476,59.7818,15.2778,0.0759666,0.0809063,1.90481,0.0213121,0.199514,"Cyc_A",0,100,81
"100","98A_100_81_150",-0.527583,-11.2476,59.7818,15.2778,0.0759666,0.0725727,1.96872,0.0197243,0.22441,"Cyc_D",750,100,81
"103","98A_100_81_150",-0.527583,-11.2476,59.7818,15.2778,0.0759666,0.0699223,1.95359,0.0189398,0.248473,"Cyc_G",3000,100,81
"106","98A_100_81_150",-0.527583,-11.2476,59.7818,15.2778,0.0759666,0.0687627,1.94845,0.0186592,0.262471,"Cyc_J",6000,100,81
"109","98A_100_81_150",-0.527583,-11.2476,59.7818,15.2778,0.0759666,0.0679439,1.94734,0.0184833,0.26988,"Cyc_M",9000,100,81
"112","98A_100_81_151",-0.527573,-10.1287,59.7828,14.9967,0.0222099,0.0705457,2.18801,0.0187502,0.087983,"Cyc_B",250,100,81
"115","98A_100_81_151",-0.527573,-10.1287,59.7828,14.9967,0.0222099,0.0698069,2.19519,0.0181459,0.0888297,"Cyc_E",1000,100,81
"118","98A_100_81_151",-0.527573,-10.1287,59.7828,14.9967,0.0222099,0.069539,2.19877,0.0171452,0.0912401,"Cyc_H",4000,100,81
"121","98A_100_81_151",-0.527573,-10.1287,59.7828,14.9967,0.0222099,0.0697923,2.19318,0.0167234,0.0919976,"Cyc_K",7000,100,81
"124","98A_100_81_151",-0.527573,-10.1287,59.7828,14.9967,0.0222099,0.0698185,2.19588,0.0164549,0.0929419,"Cyc_N",10000,100,81
"127","98A_100_81_152",-0.52756,-9.75686,59.7832,15.0034,0.046111,0.163821,0.479073,0.0176311,0.10468,"Cyc_C",500,100,81
"130","98A_100_81_152",-0.52756,-9.75686,59.7832,15.0034,0.046111,0.161684,0.480568,0.0167501,0.10646,"Cyc_F",2000,100,81
"133","98A_100_81_152",-0.52756,-9.75686,59.7832,15.0034,0.046111,0.160735,0.482202,0.0160511,0.108307,"Cyc_I",5000,100,81
"136","98A_100_81_152",-0.52756,-9.75686,59.7832,15.0034,0.046111,0.159886,0.482939,0.0156506,0.107954,"Cyc_L",8000,100,81
"139","98A_100_81_153",-0.527575,-10.2146,59.7827,20,0.0225904,0.0743157,3.06417,0.0193573,0.0464924,"Cyc_A",0,100,81
"142","98A_100_81_153",-0.527575,-10.2146,59.7827,20,0.0225904,0.0693164,3.24683,0.018628,0.0509644,"Cyc_D",750,100,81
"145","98A_100_81_153",-0.527575,-10.2146,59.7827,20,0.0225904,0.0696967,3.15467,0.0177213,0.0534492,"Cyc_G",3000,100,81
"148","98A_100_81_153",-0.527575,-10.2146,59.7827,20,0.0225904,0.0738277,2.93251,0.0171365,0.0605677,"Cyc_J",6000,100,81
"151","98A_100_81_153",-0.527575,-10.2146,59.7827,20,0.0225904,0.0741088,2.91956,0.0167971,0.0597409,"Cyc_M",9000,100,81
"154","98A_100_81_156",-0.456692,-12.2859,65.0289,0.5,0.0243417,-0.160274,0.255393,0.0240264,0.114488,"Cyc_B",250,100,81
"157","98A_100_81_156",-0.456692,-12.2859,65.0289,0.5,0.0243417,-0.157242,0.249937,0.0222467,0.116385,"Cyc_E",1000,100,81
"160","98A_100_81_156",-0.456692,-12.2859,65.0289,0.5,0.0243417,-0.158282,0.244085,0.0204476,0.118231,"Cyc_H",4000,100,81
"163","98A_100_81_156",-0.456692,-12.2859,65.0289,0.5,0.0243417,-0.157207,0.24179,0.019654,0.119902,"Cyc_K",7000,100,81
"166","98A_100_81_156",-0.456692,-12.2859,65.0289,0.5,0.0243417,-0.152732,0.23968,0.0188623,0.116704,"Cyc_N",10000,100,81
"169","98A_121_71_109",-0.291337,-157.581,59.078,0.5,0.0241786,2.94275,0.213658,0.499948,0.0760774,"Cyc_C",3000,121,71
"172","98A_121_71_109",-0.291337,-157.581,59.078,0.5,0.0241786,2.9543,0.211201,0.493178,0.0751757,"Cyc_F",6000,121,71
"175","98A_121_71_109",-0.291337,-157.581,59.078,0.5,0.0241786,2.96536,0.209638,0.488314,0.0747636,"Cyc_I",9000,121,71
"178","98A_121_71_109",-0.291337,-157.581,59.078,0.5,0.0241786,2.9591,0.206629,0.482723,0.0741865,"Cyc_L",20000,121,71
"181","98A_121_71_111",-0.291335,-212.688,59.0781,0.5,0.0242003,3.11256,0.244039,0.730003,0.0571302,"Cyc_A",0,121,71
"184","98A_121_71_111",-0.291335,-212.688,59.0781,0.5,0.0242003,2.99764,0.219618,0.565822,0.0658911,"Cyc_D",4000,121,71
"187","98A_121_71_111",-0.291335,-212.688,59.0781,0.5,0.0242003,2.94641,0.217209,0.54206,0.065643,"Cyc_G",7000,121,71
"190","98A_121_71_111",-0.291335,-212.688,59.0781,0.5,0.0242003,2.95324,0.215218,0.53282,0.0657519,"Cyc_J",10000,121,71
"193","98A_121_71_128",-0.291331,-157.496,59.078,0.02,0.0248128,2.05036,0.192478,0.437587,0.0598064,"Cyc_C",3000,121,71
"196","98A_121_71_128",-0.291331,-157.496,59.078,0.02,0.0248128,2.10173,0.190648,0.420946,0.0616384,"Cyc_F",6000,121,71
"199","98A_121_71_128",-0.291331,-157.496,59.078,0.02,0.0248128,2.16495,0.188417,0.418086,0.0620363,"Cyc_I",9000,121,71
"202","98A_121_71_129",-0.291348,-189.576,59.0779,10.0056,0.0229952,2.32332,0.777537,0.55092,0.0755734,"Cyc_B",2000,121,71
"205","98A_121_71_129",-0.291348,-189.576,59.0779,10.0056,0.0229952,2.3056,0.772556,0.521034,0.0773004,"Cyc_E",5000,121,71
"208","98A_121_71_129",-0.291348,-189.576,59.0779,10.0056,0.0229952,2.29816,0.769987,0.506146,0.0783559,"Cyc_H",8000,121,71
"211","98A_121_71_129",-0.291348,-189.576,59.0779,10.0056,0.0229952,2.28913,0.767742,0.492557,0.0781603,"Cyc_K",12500,121,71
"214","98A_121_71_129",-0.291348,-189.576,59.0779,10.0056,0.0229952,2.27783,0.76553,0.478651,0.0793332,"Cyc_N",20000,121,71
"217","98A_121_71_135",-0.692929,-183.985,5.56164,0.5,0.0243664,-2.33551,0.238988,0.228838,0.0666378,"Cyc_C",500,121,71
"220","98A_121_71_135",-0.692929,-183.985,5.56164,0.5,0.0243664,-2.31036,0.230897,0.211985,0.0668876,"Cyc_F",2000,121,71
"223","98A_121_71_141",-0.692917,-174.217,5.56305,0.5,0.0240892,-2.24933,0.240583,0.216658,0.0643036,"Cyc_C",500,121,71
"226","98A_121_71_141",-0.692917,-174.217,5.56305,0.5,0.0240892,-2.21801,0.232456,0.200268,0.0648443,"Cyc_F",2000,121,71
"229","98A_121_71_141",-0.692917,-174.217,5.56305,0.5,0.0240892,-2.18623,0.226969,0.189669,0.0651476,"Cyc_I",5000,121,71
"232","98A_121_71_141",-0.692917,-174.217,5.56305,0.5,0.0240892,-2.18744,0.224008,0.184789,0.0651086,"Cyc_L",8000,121,71
"235","98A_121_71_143",-0.291334,-186.765,59.0781,2,0.0245695,2.64083,0.326003,0.641132,0.0518687,"Cyc_A",0,121,71
"238","98A_121_71_143",-0.291334,-186.765,59.0781,2,0.0245695,2.52865,0.318321,0.550459,0.0640487,"Cyc_D",750,121,71
"241","98A_121_71_143",-0.291334,-186.765,59.0781,2,0.0245695,2.50095,0.311301,0.507592,0.0652058,"Cyc_G",3000,121,71
"244","98A_121_71_143",-0.291334,-186.765,59.0781,2,0.0245695,2.4757,0.307679,0.488149,0.0656039,"Cyc_J",6000,121,71
"247","98A_121_71_143",-0.291334,-186.765,59.0781,2,0.0245695,2.45492,0.305862,0.475673,0.0663478,"Cyc_M",9000,121,71
"250","98A_121_71_145",-0.291445,-209.552,58.7294,15.25,0.0227839,2.41414,1.20213,0.686187,0.0706525,"Cyc_B",250,121,71
"253","98A_121_71_145",-0.291445,-209.552,58.7294,15.25,0.0227839,2.31629,1.19917,0.646304,0.0715041,"Cyc_E",1000,121,71
"256","98A_121_71_145",-0.291445,-209.552,58.7294,15.25,0.0227839,2.24049,1.19021,0.589329,0.073155,"Cyc_H",4000,121,71
"259","98A_121_71_145",-0.291445,-209.552,58.7294,15.25,0.0227839,2.2279,1.186,0.566979,0.0739349,"Cyc_K",7000,121,71
"262","98A_121_71_145",-0.291445,-209.552,58.7294,15.25,0.0227839,2.22202,1.1836,0.553884,0.0742014,"Cyc_N",10000,121,71
"265","98A_121_71_159",-0.527333,-16.3616,38.6528,0.5,0.0237069,0.222036,0.217392,0.0245807,0.0931209,"Cyc_C",3000,121,71
"268","98A_121_71_159",-0.527333,-16.3616,38.6528,0.5,0.0237069,0.226806,0.214288,0.0240589,0.0945526,"Cyc_F",6000,121,71
"271","98A_121_71_159",-0.527333,-16.3616,38.6528,0.5,0.0237069,0.23009,0.212422,0.0235212,0.0954989,"Cyc_I",9000,121,71
"274","98A_121_71_159",-0.527333,-16.3616,38.6528,0.5,0.0237069,0.230595,0.210348,0.0229061,0.0957805,"Cyc_L",15000,121,71
"277","98A_121_71_168",-0.291353,-240.189,59.0784,15.0071,0.0378597,3.27075,0.260867,0.729592,0.0879023,"Cyc_C",500,121,71
"280","98A_121_71_168",-0.291353,-240.189,59.0784,15.0071,0.0378597,2.98928,0.25591,0.653222,0.0907062,"Cyc_F",2000,121,71
"283","98A_121_71_168",-0.291353,-240.189,59.0784,15.0071,0.0378597,2.89443,0.252258,0.605376,0.0923979,"Cyc_I",5000,121,71
"286","98A_121_71_168",-0.291353,-240.189,59.0784,15.0071,0.0378597,2.86569,0.250561,0.584883,0.0932273,"Cyc_L",8000,121,71
"289","98A_121_71_176",-0.291288,-220.593,59.0819,0.5,0.0239959,3.04326,0.255818,0.757077,0.0517217,"Cyc_A",0,121,71
"292","98A_121_71_176",-0.291288,-220.593,59.0819,0.5,0.0239959,2.95334,0.231596,0.60895,0.0594669,"Cyc_D",750,121,71
"295","98A_121_71_178",-0.285645,-182.474,59.4038,0.5,0.024181,2.63732,0.262989,0.553286,0.0589987,"Cyc_B",250,121,71
"298","98A_121_71_178",-0.285645,-182.474,59.4038,0.5,0.024181,NA,0.253724,0.51108,0.0613519,"Cyc_E",1050,121,71
"301","98A_121_71_179",-0.291301,-179.962,59.0815,0.5,0.0240099,2.64943,0.254027,0.524115,0.0577737,"Cyc_C",500,121,71
"304","98A_121_71_180",-0.29129,-196.344,59.0817,0.5,0.0239981,2.76211,0.281042,0.673833,0.0529157,"Cyc_A",0,121,71
"307","98A_121_71_180",-0.29129,-196.344,59.0817,0.5,0.0239981,2.6576,0.256156,0.530528,0.0598852,"Cyc_D",750,121,71
"310","98A_121_71_181",-0.291271,-194.729,59.0817,0.5,0.0239627,2.89006,0.289071,0.66856,0.0551214,"Cyc_A",0,121,71
"313","98A_121_71_181",-0.291271,-194.729,59.0817,0.5,0.0239627,2.83216,0.264574,0.556165,0.0598318,"Cyc_D",750,121,71
"316","98A_121_71_182",-0.274144,-155.914,60.0481,0.5,0.0245217,2.1781,0.264986,0.490834,0.0568503,"Cyc_B",250,121,71
"319","98A_121_71_183",-0.291274,-161.107,59.0817,0.5,0.0239322,2.38101,0.262778,0.474131,0.0572948,"Cyc_B",250,121,71
"322","98A_121_71_183",-0.291274,-161.107,59.0817,0.5,0.0239322,2.38083,0.252151,0.441653,0.0590182,"Cyc_E",1050,121,71
"325","98A_121_71_183",-0.291274,-161.107,59.0817,0.5,0.0239322,2.40129,0.242072,0.427663,0.0597583,"Cyc_H",4050,121,71
"328","98A_121_71_183",-0.291274,-161.107,59.0817,0.5,0.0239322,2.41375,0.238958,0.436588,0.0607137,"Cyc_K",7050,121,71
"331","98A_121_71_183",-0.291274,-161.107,59.0817,0.5,0.0239322,2.42081,0.236695,0.414989,0.0604627,"Cyc_N",10050,121,71
"334","98A_121_81_103",-0.527559,-22.5936,59.7833,0.5,0.0244763,0.311037,0.223532,0.0335526,0.0926983,"Cyc_C",3000,121,81
"337","98A_121_81_103",-0.527559,-22.5936,59.7833,0.5,0.0244763,0.307207,0.219431,0.0319323,0.0937742,"Cyc_F",6000,121,81
"340","98A_121_81_103",-0.527559,-22.5936,59.7833,0.5,0.0244763,0.303632,0.217031,0.0311962,0.0937833,"Cyc_I",9000,121,81
"343","98A_121_81_103",-0.527559,-22.5936,59.7833,0.5,0.0244763,0.304476,0.209757,0.0288928,0.0946586,"Cyc_L",30000,121,81
"346","98A_121_81_108",-0.527558,-23.105,59.7832,10,0.0230544,0.424257,0.306204,0.0378488,0.120889,"Cyc_C",2900,121,81
"349","98A_121_81_108",-0.527558,-23.105,59.7832,10,0.0230544,0.419515,0.30495,0.0361375,0.122109,"Cyc_F",5900,121,81
"352","98A_121_81_108",-0.527558,-23.105,59.7832,10,0.0230544,0.416763,0.304135,0.0351654,0.122785,"Cyc_I",8900,121,81
"355","98A_121_81_108",-0.527558,-23.105,59.7832,10,0.0230544,0.413236,0.302296,0.033467,0.124217,"Cyc_L",19950,121,81
"358","98A_121_81_112",-0.527562,-19.879,59.783,5,0.0239644,0.307849,0.314739,0.0376761,0.0960484,"Cyc_A",0,121,81
"361","98A_121_81_112",-0.527562,-19.879,59.783,5,0.0239644,0.287198,0.312388,0.0304216,0.105508,"Cyc_D",4000,121,81
"364","98A_121_81_112",-0.527562,-19.879,59.783,5,0.0239644,0.285279,0.311196,0.0293759,0.106656,"Cyc_G",7000,121,81
"367","98A_121_81_112",-0.527562,-19.879,59.783,5,0.0239644,0.283926,0.310612,0.0287259,0.106108,"Cyc_J",10000,121,81
"370","98A_121_81_112",-0.527562,-19.879,59.783,5,0.0239644,0.281683,0.308632,0.0271007,0.108141,"Cyc_M",25000,121,81
"373","98A_121_81_122",-0.527556,-17.7432,59.7833,0.1,0.0242687,0.220109,0.199212,0.027843,0.0874928,"Cyc_B",2000,121,81
"376","98A_121_81_122",-0.527556,-17.7432,59.7833,0.1,0.0242687,0.214476,0.194066,0.0260666,0.0909404,"Cyc_E",5000,121,81
"379","98A_121_81_142",-0.456693,-20.6078,65.0289,0.5,0.0245301,-0.286891,0.302036,0.0392005,0.103492,"Cyc_B",250,121,81
"382","98A_121_81_142",-0.456693,-20.6078,65.0289,0.5,0.0245301,-0.282788,0.29486,0.0362694,0.1068,"Cyc_E",1000,121,81
"385","98A_121_81_142",-0.456693,-20.6078,65.0289,0.5,0.0245301,-0.280444,0.287398,0.0336228,0.109034,"Cyc_H",4000,121,81
"388","98A_121_81_142",-0.456693,-20.6078,65.0289,0.5,0.0245301,-0.276499,0.285325,0.0323438,0.108776,"Cyc_K",7000,121,81
"391","98A_121_81_142",-0.456693,-20.6078,65.0289,0.5,0.0245301,-0.276041,0.281014,0.0315832,0.109961,"Cyc_N",10000,121,81
"394","98A_121_81_147",-0.29133,-18.0607,73.1886,15,0.0222133,0.198054,1.35847,0.0587203,0.0612484,"Cyc_C",500,121,81
"397","98A_121_81_147",-0.29133,-18.0607,73.1886,15,0.0222133,0.195557,1.3541,0.0550272,0.063612,"Cyc_F",2000,121,81
"400","98A_121_81_147",-0.29133,-18.0607,73.1886,15,0.0222133,0.195282,1.34803,0.0521977,0.065167,"Cyc_I",5000,121,81
"403","98A_121_81_147",-0.29133,-18.0607,73.1886,15,0.0222133,0.195413,1.3448,0.0507557,0.0656594,"Cyc_L",8000,121,81
"406","98A_121_81_148",-0.527558,-21.1748,59.7834,15.0017,0.0224861,0.398452,0.322611,0.0401384,0.0918098,"Cyc_A",0,121,81
"409","98A_121_81_148",-0.527558,-21.1748,59.7834,15.0017,0.0224861,0.377276,0.325541,0.0372831,0.0878076,"Cyc_D",750,121,81
"412","98A_121_81_148",-0.527558,-21.1748,59.7834,15.0017,0.0224861,0.370127,0.324851,0.0347266,0.0904699,"Cyc_G",3000,121,81
"415","98A_121_81_148",-0.527558,-21.1748,59.7834,15.0017,0.0224861,0.367327,0.324061,0.0333167,0.0916878,"Cyc_J",6000,121,81
"418","98A_121_81_148",-0.527558,-21.1748,59.7834,15.0017,0.0224861,0.365731,0.323451,0.0325348,0.0920339,"Cyc_M",9000,121,81
"421","98A_121_81_149",-0.763779,-57.2576,19.5655,15,0.0228038,1.26273,1.22861,0.0697207,0.194019,"Cyc_B",250,121,81
"424","98A_121_81_149",-0.763779,-57.2576,19.5655,15,0.0228038,1.20846,1.22482,0.0648887,0.200708,"Cyc_E",1000,121,81
"427","98A_121_81_149",-0.763779,-57.2576,19.5655,15,0.0228038,1.15055,1.2199,0.0591528,0.20893,"Cyc_H",4000,121,81
"430","98A_121_81_149",-0.763779,-57.2576,19.5655,15,0.0228038,1.12446,1.21805,0.056823,0.211444,"Cyc_K",7000,121,81
"433","98A_121_81_149",-0.763779,-57.2576,19.5655,15,0.0228038,1.10788,1.21702,0.0554034,0.212358,"Cyc_N",10000,121,81
"436","98A_121_81_166",-0.527561,-25.2086,59.7834,9.99286,0.0780576,0.27924,0.423351,0.040503,0.196582,"Cyc_C",500,121,81
"439","98A_121_81_166",-0.527561,-25.2086,59.7834,9.99286,0.0780576,0.265339,0.428002,0.0368983,0.201442,"Cyc_F",2000,121,81
"442","98A_121_81_166",-0.527561,-25.2086,59.7834,9.99286,0.0780576,0.252792,0.431362,0.0345622,0.208149,"Cyc_I",5000,121,81
"445","98A_121_81_166",-0.527561,-25.2086,59.7834,9.99286,0.0780576,0.245319,0.433722,0.0333946,0.212251,"Cyc_L",8000,121,81
"448","98A_121_81_170",-0.527565,-25.7886,59.7843,10,0.0235526,0.508773,0.297606,0.0488648,0.115465,"Cyc_A",0,121,81
"451","98A_121_81_170",-0.527565,-25.7886,59.7843,10,0.0235526,0.475857,0.299935,0.0442125,0.125412,"Cyc_D",750,121,81
"454","98A_121_81_170",-0.527565,-25.7886,59.7843,10,0.0235526,0.465028,0.298027,0.040794,0.129531,"Cyc_G",3000,121,81
"457","98A_121_81_170",-0.527565,-25.7886,59.7843,10,0.0235526,0.459862,0.297029,0.0390375,0.131304,"Cyc_J",6000,121,81
"460","98A_121_81_170",-0.527565,-25.7886,59.7843,10,0.0235526,0.456809,0.29613,0.0380155,0.132141,"Cyc_M",9000,121,81
"463","98A_79_71_106",-0.291338,-62.7996,59.0779,0.5,0.0241288,0.526396,0.255857,0.183241,0.0484756,"Cyc_B",2000,79,71
"466","98A_79_71_106",-0.291338,-62.7996,59.0779,0.5,0.0241288,0.523287,0.250861,0.175723,0.0468626,"Cyc_E",5000,79,71
"469","98A_79_71_106",-0.291338,-62.7996,59.0779,0.5,0.0241288,0.52218,0.248752,0.171335,0.0460748,"Cyc_H",8000,79,71
"472","98A_79_71_106",-0.291338,-62.7996,59.0779,0.5,0.0241288,0.528229,0.245987,0.166152,0.0452501,"Cyc_K",15000,79,71
"475","98A_79_71_106",-0.291338,-62.7996,59.0779,0.5,0.0241288,0.542649,0.242744,0.161238,0.0444228,"Cyc_N",30000,79,71
"478","98A_79_71_115",-0.291336,-59.2402,59.0778,0.5,0.0246157,0.453978,0.258618,0.166404,0.048607,"Cyc_C",3000,79,71
"481","98A_79_71_115",-0.291336,-59.2402,59.0778,0.5,0.0246157,0.462824,0.245481,0.161529,0.046374,"Cyc_F",6000,79,71
"484","98A_79_71_115",-0.291336,-59.2402,59.0778,0.5,0.0246157,0.468607,0.24432,0.158813,0.046316,"Cyc_I",9000,79,71
"487","98A_79_71_116",-0.291341,-62.4512,59.0779,10,0.0238214,0.557155,0.909827,0.199513,0.0790567,"Cyc_B",2000,79,71
"490","98A_79_71_116",-0.291341,-62.4512,59.0779,10,0.0238214,0.549986,0.855409,0.191296,0.0663411,"Cyc_E",5000,79,71
"493","98A_79_71_116",-0.291341,-62.4512,59.0779,10,0.0238214,0.550111,0.880255,0.186234,0.0719662,"Cyc_H",8000,79,71
"496","98A_79_71_116",-0.291341,-62.4512,59.0779,10,0.0238214,0.549489,0.87328,0.182283,0.0744376,"Cyc_K",12500,79,71
"499","98A_79_71_116",-0.291341,-62.4512,59.0779,10,0.0238214,0.553489,0.854981,0.179558,0.0635052,"Cyc_N",20000,79,71
"502","98A_79_71_117",-0.29134,-62.4717,59.0777,5,0.0252721,0.609775,0.563947,0.189943,0.0647019,"Cyc_C",3000,79,71
"505","98A_79_71_117",-0.29134,-62.4717,59.0777,5,0.0252721,0.612675,0.559164,0.183596,0.068743,"Cyc_F",6000,79,71
"508","98A_79_71_117",-0.29134,-62.4717,59.0777,5,0.0252721,0.610758,0.555019,0.179584,0.0671829,"Cyc_I",9000,79,71
"511","98A_79_71_117",-0.29134,-62.4717,59.0777,5,0.0252721,0.611098,0.55541,0.175823,0.0651373,"Cyc_L",15000,79,71
"514","98A_79_71_119",-0.291339,-61.8452,59.0779,2,0.0253821,0.556085,0.410334,0.212267,0.0460278,"Cyc_A",0,79,71
"517","98A_79_71_119",-0.291339,-61.8452,59.0779,2,0.0253821,0.560276,0.387208,0.178474,0.0544242,"Cyc_D",4000,79,71
"520","98A_79_71_119",-0.291339,-61.8452,59.0779,2,0.0253821,0.555791,0.387117,0.173952,0.0584891,"Cyc_G",7000,79,71
"523","98A_79_71_119",-0.291339,-61.8452,59.0779,2,0.0253821,0.555215,0.384652,0.171011,0.053347,"Cyc_J",10000,79,71
"526","98A_79_71_119",-0.291339,-61.8452,59.0779,2,0.0253821,0.560266,0.376011,0.165683,0.0547453,"Cyc_M",17500,79,71
"529","98A_79_71_134",-0.290698,-54.2557,59.1129,0.5,0.02368,0.418372,0.244917,0.161163,0.0396689,"Cyc_B",2000,79,71
"532","98A_79_71_134",-0.290698,-54.2557,59.1129,0.5,0.02368,NA,0.240461,0.155121,0.0389574,"Cyc_E",5000,79,71
"535","98A_79_71_137",-0.291331,-58.8362,59.0773,14.9957,0.0223374,0.445066,1.34855,0.196023,0.0580847,"Cyc_C",500,79,71
"538","98A_79_71_137",-0.291331,-58.8362,59.0773,14.9957,0.0223374,0.438742,1.34455,0.187297,0.058775,"Cyc_F",2000,79,71
"541","98A_79_71_137",-0.291331,-58.8362,59.0773,14.9957,0.0223374,0.435114,1.34102,0.17938,0.0590042,"Cyc_I",5000,79,71
"544","98A_79_71_137",-0.291331,-58.8362,59.0773,14.9957,0.0223374,0.436431,1.34093,0.176218,0.0583633,"Cyc_L",8000,79,71
"547","98A_79_71_139",-0.692913,-56.673,5.56349,0.5,0.0242818,-0.423274,0.269732,0.0817966,0.0433292,"Cyc_A",0,79,71
"550","98A_79_71_139",-0.692913,-56.673,5.56349,0.5,0.0242818,-0.423379,0.254821,0.0720229,0.0468722,"Cyc_D",750,79,71
"553","98A_79_71_139",-0.692913,-56.673,5.56349,0.5,0.0242818,-0.426014,0.246262,0.0678573,0.04656,"Cyc_G",3000,79,71
"556","98A_79_71_139",-0.692913,-56.673,5.56349,0.5,0.0242818,-0.428155,0.242357,0.0657173,0.0459905,"Cyc_J",6000,79,71
"559","98A_79_71_139",-0.692913,-56.673,5.56349,0.5,0.0242818,-0.429551,0.244803,0.06487,0.045315,"Cyc_M",9000,79,71
"562","98A_79_71_140",-0.29134,-60.1688,59.0776,15.0026,0.0146732,0.461129,1.32111,0.203574,0.0587406,"Cyc_B",250,79,71
"565","98A_79_71_140",-0.29134,-60.1688,59.0776,15.0026,0.0146732,0.458936,1.31972,0.198143,0.0591258,"Cyc_E",1000,79,71
"568","98A_79_71_140",-0.29134,-60.1688,59.0776,15.0026,0.0146732,0.458578,1.31446,0.188667,0.0587236,"Cyc_H",4000,79,71
"571","98A_79_71_140",-0.29134,-60.1688,59.0776,15.0026,0.0146732,0.458939,1.31208,0.184197,0.0585274,"Cyc_K",7000,79,71
"574","98A_79_71_140",-0.29134,-60.1688,59.0776,15.0026,0.0146732,0.459439,1.31041,0.181339,0.0585175,"Cyc_N",10000,79,71
"577","98A_79_71_144",-0.291337,-57.7204,59.0777,2,0.0257442,0.476153,0.383721,0.18293,0.0517118,"Cyc_C",500,79,71
"580","98A_79_71_144",-0.291337,-57.7204,59.0777,2,0.0257442,0.475542,0.380664,0.172723,0.0527009,"Cyc_F",2000,79,71
"583","98A_79_71_144",-0.291337,-57.7204,59.0777,2,0.0257442,0.471982,0.373885,0.165389,0.0614204,"Cyc_I",5000,79,71
"586","98A_79_71_144",-0.291337,-57.7204,59.0777,2,0.0257442,0.473037,0.380555,0.162426,0.0568412,"Cyc_L",8000,79,71
"589","98A_79_71_146",-0.291438,-61.7674,58.7271,15,0.0224086,0.452464,1.33924,0.212279,0.0528405,"Cyc_A",0,79,71
"592","98A_79_71_146",-0.291438,-61.7674,58.7271,15,0.0224086,0.440375,1.33946,0.204001,0.0563621,"Cyc_D",750,79,71
"595","98A_79_71_146",-0.291438,-61.7674,58.7271,15,0.0224086,0.435975,1.33336,0.194201,0.0565746,"Cyc_G",3000,79,71
"598","98A_79_71_146",-0.291438,-61.7674,58.7271,15,0.0224086,0.435516,1.32989,0.188257,0.0564832,"Cyc_J",6000,79,71
"601","98A_79_71_146",-0.291438,-61.7674,58.7271,15,0.0224086,0.435564,1.3281,0.184784,0.0563754,"Cyc_M",9000,79,71
"604","98A_79_71_167",-0.291304,-70.5579,59.0802,10,0.0780123,0.443746,0.932607,0.23059,0.120342,"Cyc_B",250,79,71
"607","98A_79_71_167",-0.291304,-70.5579,59.0802,10,0.0780123,0.41875,0.927473,0.217864,0.122038,"Cyc_E",1000,79,71
"610","98A_79_71_167",-0.291304,-70.5579,59.0802,10,0.0780123,0.403376,0.920381,0.201526,0.123789,"Cyc_H",4000,79,71
"613","98A_79_71_167",-0.291304,-70.5579,59.0802,10,0.0780123,0.398909,0.918533,0.195217,0.12413,"Cyc_K",7050,79,71
"616","98A_79_71_167",-0.291304,-70.5579,59.0802,10,0.0780123,0.395621,0.917388,0.1913,0.124048,"Cyc_N",10050,79,71
"619","98A_79_71_169",-0.291351,-70.4544,59.0778,15,0.0150654,0.954624,0.287418,0.234758,0.0691831,"Cyc_C",500,79,71
"622","98A_79_71_169",-0.291351,-70.4544,59.0778,15,0.0150654,0.947128,0.286531,0.224924,0.0688981,"Cyc_F",2000,79,71
"625","98A_79_71_169",-0.291351,-70.4544,59.0778,15,0.0150654,0.941063,0.285367,0.21573,0.06931,"Cyc_I",5000,79,71
"628","98A_79_71_169",-0.291351,-70.4544,59.0778,15,0.0150654,0.937333,0.28495,0.210665,0.069149,"Cyc_L",8000,79,71
"631","98A_79_71_171",-0.291325,-70.4474,59.0805,10,0.0791577,0.48313,0.933537,0.241482,0.124773,"Cyc_A",0,79,71
"634","98A_79_71_171",-0.291325,-70.4474,59.0805,10,0.0791577,0.427715,0.935833,0.221482,0.129156,"Cyc_D",750,79,71
"637","98A_79_71_171",-0.291325,-70.4474,59.0805,10,0.0791577,0.41131,0.929079,0.206267,0.129966,"Cyc_G",3000,79,71
"640","98A_79_71_171",-0.291325,-70.4474,59.0805,10,0.0791577,0.410246,0.923518,0.199832,0.129362,"Cyc_J",6000,79,71
"643","98A_79_71_171",-0.291325,-70.4474,59.0805,10,0.0791577,0.408847,0.921333,0.196065,0.13235,"Cyc_M",9050,79,71
"646","98A_79_71_172",-0.291307,-59.5383,59.0804,10,0.0790877,0.418168,0.937902,0.200259,0.128484,"Cyc_B",250,79,71
"649","98A_79_71_172",-0.291307,-59.5383,59.0804,10,0.0790877,0.40301,0.932371,0.196214,0.128385,"Cyc_E",1000,79,71
"652","98A_79_71_172",-0.291307,-59.5383,59.0804,10,0.0790877,0.400837,0.913154,0.191471,0.130406,"Cyc_H",4000,79,71
"655","98A_79_71_172",-0.291307,-59.5383,59.0804,10,0.0790877,0.396898,0.929871,0.189172,0.129085,"Cyc_K",7000,79,71
"658","98A_79_71_172",-0.291307,-59.5383,59.0804,10,0.0790877,0.397865,0.921747,0.187683,0.130281,"Cyc_N",10000,79,71
"661","98A_79_71_175",-0.291274,-69.3642,59.082,0.5,0.0242139,0.589948,0.260446,0.207462,0.0478832,"Cyc_C",500,79,71
"664","98A_79_71_175",-0.291274,-69.3642,59.082,0.5,0.0242139,0.598178,0.252995,0.194653,0.0480955,"Cyc_F",2050,79,71
"667","98A_79_71_175",-0.291274,-69.3642,59.082,0.5,0.0242139,0.603507,0.248704,0.186514,0.048802,"Cyc_I",5050,79,71
"670","98A_79_71_175",-0.291274,-69.3642,59.082,0.5,0.0242139,0.610449,0.24675,0.182709,0.0478743,"Cyc_L",8050,79,71
"673","98A_79_71_177",-0.291295,-64.0981,59.0817,0.5,0.0240641,0.540558,0.273539,0.219967,0.0386937,"Cyc_A",0,79,71
"676","98A_79_71_177",-0.291295,-64.0981,59.0817,0.5,0.0240641,0.536626,0.256633,0.18554,0.0417606,"Cyc_D",800,79,71
"679","98A_79_81_100",-0.52756,-6.26391,59.7834,0.53125,0.0255496,0.053721,0.265915,0.0100471,0.0639224,"Cyc_B",2000,79,81
"682","98A_79_81_100",-0.52756,-6.26391,59.7834,0.53125,0.0255496,0.0528447,0.292267,0.00991752,0.0608506,"Cyc_E",5000,79,81
"685","98A_79_81_100",-0.52756,-6.26391,59.7834,0.53125,0.0255496,0.0523023,0.287176,0.0098282,0.058021,"Cyc_H",8000,79,81
"688","98A_79_81_100",-0.52756,-6.26391,59.7834,0.53125,0.0255496,0.0579942,0.269203,0.0100432,0.0601268,"Cyc_K",15000,79,81
"691","98A_79_81_100",-0.52756,-6.26391,59.7834,0.53125,0.0255496,0.0587608,0.275785,0.0100623,0.060272,"Cyc_N",30000,79,81
"694","98A_79_81_104",-0.527558,-6.80132,59.7836,0.5,0.0241523,0.0621778,0.288402,0.0106018,0.0599872,"Cyc_C",3000,79,81
"697","98A_79_81_104",-0.527558,-6.80132,59.7836,0.5,0.0241523,0.0626865,0.284765,0.010423,0.0584551,"Cyc_F",6000,79,81
"700","98A_79_81_104",-0.527558,-6.80132,59.7836,0.5,0.0241523,0.0637208,0.282159,0.0103232,0.0590662,"Cyc_I",9000,79,81
"703","98A_79_81_104",-0.527558,-6.80132,59.7836,0.5,0.0241523,0.0640358,0.287649,0.0101096,0.0574914,"Cyc_L",20000,79,81
"706","98A_79_81_113",-0.52756,-5.40974,59.7832,0.5,0.0242588,0.0506527,0.427817,0.0102541,0.0590513,"Cyc_A",0,79,81
"709","98A_79_81_113",-0.52756,-5.40974,59.7832,0.5,0.0242588,0.050427,0.412331,0.00822471,0.0593307,"Cyc_D",4000,79,81
"712","98A_79_81_113",-0.52756,-5.40974,59.7832,0.5,0.0242588,0.0510832,0.407832,0.00799148,0.0588238,"Cyc_G",7000,79,81
"715","98A_79_81_113",-0.52756,-5.40974,59.7832,0.5,0.0242588,0.0514766,0.406438,0.00778837,0.0602502,"Cyc_J",10000,79,81
"718","98A_79_81_114",-0.448819,-4.23831,65.5285,0.5,0.0243006,0.0374866,0.37541,0.00802494,0.0460773,"Cyc_B",2000,79,81
"721","98A_79_81_114",-0.448819,-4.23831,65.5285,0.5,0.0243006,0.0382033,0.369703,0.0078451,0.0437189,"Cyc_E",5000,79,81
"724","98A_79_81_114",-0.448819,-4.23831,65.5285,0.5,0.0243006,0.0387154,0.367093,0.00767943,0.0437679,"Cyc_H",8000,79,81
"727","98A_79_81_114",-0.448819,-4.23831,65.5285,0.5,0.0243006,0.0406106,0.359287,0.00732935,0.0418425,"Cyc_K",15000,79,81
"730","98A_79_81_120",-0.44882,-4.68303,65.5286,2,0.0243196,0.0412725,0.526881,0.00923348,0.0474021,"Cyc_B",2000,79,81
"733","98A_79_81_120",-0.44882,-4.68303,65.5286,2,0.0243196,0.0416901,0.520922,0.0088396,0.0448777,"Cyc_E",5000,79,81
"736","98A_79_81_120",-0.44882,-4.68303,65.5286,2,0.0243196,0.0420406,0.517234,0.00866949,0.0453551,"Cyc_H",8000,79,81
"739","98A_79_81_123",-0.527568,-5.73014,59.7832,10,0.0231555,0.116442,0.543003,0.0108584,0.073038,"Cyc_A",0,79,81
"742","98A_79_81_123",-0.527568,-5.73014,59.7832,10,0.0231555,0.115665,0.537822,0.00979309,0.0768938,"Cyc_D",4000,79,81
"745","98A_79_81_123",-0.527568,-5.73014,59.7832,10,0.0231555,0.115457,0.537537,0.00958452,0.0765827,"Cyc_G",7000,79,81
"748","98A_79_81_123",-0.527568,-5.73014,59.7832,10,0.0231555,0.115276,0.537638,0.00943612,0.0765173,"Cyc_J",10000,79,81
"751","98A_79_81_123",-0.527568,-5.73014,59.7832,10,0.0231555,0.114627,0.538869,0.00927298,0.0758482,"Cyc_M",17500,79,81
"754","98A_79_81_124",-0.527565,-5.85974,59.7833,5,0.0240438,0.079554,0.939491,0.0101171,0.0797504,"Cyc_B",2000,79,81
"757","98A_79_81_124",-0.527565,-5.85974,59.7833,5,0.0240438,0.0795497,0.937827,0.00972608,0.0801007,"Cyc_E",5000,79,81
"760","98A_79_81_124",-0.527565,-5.85974,59.7833,5,0.0240438,0.0795028,0.937314,0.00953773,0.079931,"Cyc_H",8000,79,81
"763","98A_79_81_131",-0.527559,-5.89325,59.7835,2,0.0242882,0.0711768,0.727589,0.0111709,0.0628942,"Cyc_A",0,79,81
"766","98A_79_81_131",-0.527559,-5.89325,59.7835,2,0.0242882,0.0720785,0.713865,0.00952556,0.0696059,"Cyc_D",4000,79,81
"769","98A_79_81_131",-0.527559,-5.89325,59.7835,2,0.0242882,0.0723431,0.71125,0.00927822,0.0704546,"Cyc_G",7000,79,81
"772","98A_79_81_131",-0.527559,-5.89325,59.7835,2,0.0242882,0.0723214,0.710674,0.00915573,0.069935,"Cyc_J",10000,79,81
"775","98A_79_81_131",-0.527559,-5.89325,59.7835,2,0.0242882,0.0723458,0.708748,0.00890229,0.0689938,"Cyc_M",17500,79,81
"778","98A_79_81_133",-0.5272,-5.49441,59.8435,10.7937,0.0234343,0.0865256,0.786211,0.00975046,0.0606936,"Cyc_B",2000,79,81
"781","98A_79_81_133",-0.5272,-5.49441,59.8435,10.7937,0.0234343,0.0864393,0.785046,0.00942483,0.0607175,"Cyc_E",5000,79,81
"784","98A_79_81_133",-0.5272,-5.49441,59.8435,10.7937,0.0234343,0.0863064,0.784711,0.00927162,0.061571,"Cyc_H",8000,79,81
"787","98A_79_81_133",-0.5272,-5.49441,59.8435,10.7937,0.0234343,0.0861201,0.785168,0.00912866,0.0621557,"Cyc_K",12500,79,81
"790","98A_79_81_133",-0.5272,-5.49441,59.8435,10.7937,0.0234343,0.0858707,0.78518,0.0089785,0.0625513,"Cyc_N",20000,79,81
"793","98A_79_81_136",-0.4567,-6.31404,65.0289,0.5,0.0244154,-0.0697082,0.284357,0.0122979,0.0687984,"Cyc_C",500,79,81
"796","98A_79_81_138",-0.456692,-6.07568,65.0289,0.5,0.0241396,-0.0682218,0.286944,0.013305,0.0619861,"Cyc_A",0,79,81
"799","98A_79_81_138",-0.456692,-6.07568,65.0289,0.5,0.0241396,-0.0704681,0.282135,0.0119416,0.0736511,"Cyc_D",750,79,81
"802","98A_79_81_138",-0.456692,-6.07568,65.0289,0.5,0.0241396,-0.0742504,0.269935,0.0115311,0.0728958,"Cyc_G",3000,79,81
"805","98A_79_81_138",-0.456692,-6.07568,65.0289,0.5,0.0241396,-0.0762728,0.268558,0.0112274,0.0710421,"Cyc_J",6000,79,81
"808","98A_79_81_138",-0.456692,-6.07568,65.0289,0.5,0.0241396,-0.0771936,0.267578,0.0110969,0.0700579,"Cyc_M",9000,79,81
"811","98A_79_81_155",-0.456692,-7.60835,65.029,0.5,0.0247703,-0.0938999,0.269756,0.0151711,0.0866251,"Cyc_B",250,79,81
"814","98A_79_81_155",-0.456692,-7.60835,65.029,0.5,0.0247703,-0.0946691,0.264269,0.0142517,0.0847898,"Cyc_E",1000,79,81
"817","98A_79_81_155",-0.456692,-7.60835,65.029,0.5,0.0247703,-0.0965209,0.273408,0.0135094,0.0821874,"Cyc_H",4000,79,81
"820","98A_79_81_155",-0.456692,-7.60835,65.029,0.5,0.0247703,-0.0972255,0.261943,0.0132027,0.0828617,"Cyc_K",7000,79,81
"823","98A_79_81_155",-0.456692,-7.60835,65.029,0.5,0.0247703,-0.09636,0.263839,0.0128191,0.0776553,"Cyc_N",10000,79,81
"826","98A_79_81_173",-0.527571,-6.75356,59.7827,10,0.0243378,0.112175,0.646402,0.0122053,0.104891,"Cyc_C",500,79,81
"829","98A_79_81_173",-0.527571,-6.75356,59.7827,10,0.0243378,0.111712,0.645797,0.0116632,0.0955704,"Cyc_F",2000,79,81
"832","98A_79_81_173",-0.527571,-6.75356,59.7827,10,0.0243378,0.115129,0.580497,0.0111281,0.115263,"Cyc_I",5000,79,81
"835","98A_79_81_173",-0.527571,-6.75356,59.7827,10,0.0243378,0.110351,0.656839,0.0108644,0.101294,"Cyc_L",8000,79,81
"838","98A_79_81_174",-0.527568,-6.45388,59.784,10,0.024475,0.127089,0.557437,0.01223,0.0868901,"Cyc_A",0,79,81
"841","98A_79_81_174",-0.527568,-6.45388,59.784,10,0.024475,0.124757,0.565291,0.0116231,0.087607,"Cyc_D",750,79,81
"844","98A_79_81_174",-0.527568,-6.45388,59.784,10,0.024475,0.123783,0.571263,0.0109888,0.0814157,"Cyc_G",3000,79,81
"847","98A_79_81_174",-0.527568,-6.45388,59.784,10,0.024475,0.125416,0.559967,0.0106844,0.0842259,"Cyc_J",6000,79,81
"850","98A_79_81_174",-0.527568,-6.45388,59.784,10,0.024475,0.127292,0.544604,0.0105364,0.0930996,"Cyc_M",9000,79,81
"851","98A_79_81_174",-0.527568,-6.45388,59.784,10,0.024475,0.125805,0.560777,0.0104417,0.0911668,"Cyc_N",10000,79,81